File: XRD datasets
         AS		             SR300°C/5h		        SA100°C/15min
   2θ     Intensity       2θ     Intensity     2θ     Intensity
30.02626	1247.01	30.02626	1202.01	30.02626	1414.01
30.13226	1291.05	30.13226	1215.2	30.13226	1490.83
30.23826	1264.54	30.23826	1252.23	30.23826	1498.11
30.34426	1307.94	30.34426	1303.62	  30.34426	1500.4
30.45026	1271.29	30.45026	1257.12	30.45026	1501.6
30.55626	1237.41	30.55626	1253.81	30.55626	1439.66
30.66226	1278.43	30.66226	1212.43	30.66226	1476.15
30.76826	1306.35	30.76826	1269.09	30.76826	1468.22
30.87426	1266.62	30.87426	1244.22	30.87426	1480.33
30.98026	1312.77	30.98026	1257.3	30.98026	1512.31
31.08626	1311.56	31.08626	1226.63	31.08626	1506.31
31.19226	1311.99	31.19226	1263.76	31.19226	1492.95
31.29826	1348.57	31.29826	1284.8	31.29826	1501.45
31.40426	1271.2	31.40426	1248.26	31.40426	1442.34
31.51026	1263.6	31.51026	1240.84	  31.51026	1470.03
31.61626	1273.33	31.61626	1272.18	  31.61626	1528.39
31.72226	1264.71	31.72226	1264.47	31.72226	1498.12
31.82826	1290.94	31.82826	1217.83	31.82826	1499.2
31.93426	1299.56	31.93426	1271.07	31.93426	1473
32.04026	1289.06	32.04026	1263.79	32.04026	1529.68
32.14626	1304.06	32.14626	1225.66	  32.14626	1517.35
32.25226	1359.22	32.25226	1270.65	32.25226	1513.86
32.35826	1365.06	32.35826	1246.92	32.35826	1505.39
32.46426	1304.17	32.46426	1237.07	32.46426	1531.88
32.57026	1335.76	32.57026	1224.27	32.57026	1519.14
32.67626	1279.47	32.67626	1243.6	  32.67626	1542
32.78226	1305.58	32.78226	1223.74	32.78226	1563.74
32.88826	1276.1	32.88826	1260.84	  32.88826	1549.19
32.99426	1302.59	32.99426	1280.8	32.99426	1552.37
33.10026	1327.89	33.10026	1290.42	33.10026	1578.04
33.20626	1336.39	33.20626	1242.41	33.20626	1560.15
33.31226	1345.32	33.31226	1265.01	33.31226	1514.36
33.41826	1329.52	33.41826	1279.79	33.41826	1484.53
33.52426	1328.24	33.52426	1260.25	33.52426	1554.49
33.63026	1363.09	33.63026	1264.15	33.63026	1559.47
33.73626	1292.78	33.73626	1248.49	33.73626	1507.4
33.84226	1342.86	33.84226	1206.63	33.84226	1508.44
33.94826	1370.17	33.94826	1244.16	  33.94826	1556.22
34.05426	1332.8	34.05426	1279.92	34.05426	1557.63
34.16026	1338.68	34.16026	1316.26	  34.16026	1524.38
34.26626	1385.45	34.26626	1236.82	34.26626	1519.47
34.37226	1388.35	34.37226	1253.51	34.37226	1532.9
34.47826	1340.67	34.47826	1250.39	34.47826	1520.8
34.58426	1364.6	34.58426	1290.43	  34.58426	1541.53
34.69026	1331.14	34.69026	1250.22	34.69026	1519.51
34.79626	1376.5	34.79626	1263.71	  34.79626	1553.65
34.90226	1369.82	34.90226	1260.21	34.90226	1584.28
35.00826	1374.43	35.00826	1278.3	35.00826	1534.15
35.11426	1350.78	35.11426	1318.03	35.11426	1588.9
35.22026	1337.59	35.22026	1286.15	35.22026	1546.14
35.32626	1383.07	35.32626	1250.19	  35.32626	1513.39
35.43226	1381.52	35.43226	1203.87	35.43226	1601.67
35.53826	1337.46	35.53826	1370.49	35.53826	1611.58
35.64426	1385.27	35.64426	1310.21	35.64426	1569
35.75026	1443.2	35.75026	1290.28	  35.75026	1604.6
35.85626	1379	35.85626	1261.07	35.85626	1581.03
35.96226	1374.713	35.96226	1329.69	  35.96226	1555.71
36.06826	1354.93	36.06826	1293.77	36.06826	1563.1
36.17426	1331.76	36.17426	1295.43	36.17426	1556.1
36.28026	1360.48	36.28026	1314.37	  36.28026	1578.51
36.38626	1379.7	36.38626	1373.75	36.38626	1627.04
36.49226	1388.77	36.49226	1309.84	36.49226	1603.6
36.59826	1401.61	36.59826	1354.96	36.59826	1592.58
36.70426	1389.08	36.70426	1355.78	36.70426	1585.26
36.81026	1372.86	36.81026	1294.2	36.81026	1585.71
36.91626	1388.75	36.91626	1292.21	36.91626	1594.76
37.02226	1306.92	37.02226	1373.21	37.02226	1612
37.12826	1397	37.12826	1264.9	37.12826	1560.67
37.23426	1380.81	37.23426	1331.77	37.23426	1645.77
37.34026	1385.22	37.34026	1304.45	  37.34026	1623.6
37.44626	1425.27	37.44626	1372.48	37.44626	1589.94
37.55226	1394.53	37.55226	1329.27	37.55226	1585.38
37.65826	1397.95	37.65826	1339.52	37.65826	1631.31
37.76426	1438.21	37.76426	1336.76	37.76426	1641.01
37.87026	1424.85	37.87026	1326.43	37.87026	1598.7
37.97626	1451.14	37.97626	1347.22	37.97626	1593.42
38.08226	1447.99	38.08226	1307.78	38.08226	1614.15
38.18826	1430.35	38.18826	1311.42	  38.18826	1644.483
38.29426	1351.64	38.29426	1264.09	38.29426	1625.29
38.40026	1337.26	38.40026	1322.32	  38.40026	1590.06
38.50626	1346.49	38.50626	1350.35	38.50626	1654.41
38.61226	1383.17	38.61226	1353.35	38.61226	1674.63
38.71826	1344.43	38.71826	1331.22	38.71826	1668.068
38.82426	1356.85	38.82426	1267.22	38.82426	1637.71
38.93026	1388.34	38.93026	  1352.15	38.93026	1692.92
39.03626	1381.36	39.03626	1299.91	39.03626	1684.36
39.14226	1413.26	39.14226	1370.01	39.14226	1635.65
39.24826	1373.31	39.24826	1327.75	39.24826	1686.93
39.35426	1387.89	39.35426	1294.86	39.35426	1671.98
39.46026	1442.98	39.46026	1400.88	39.46026	1694.09
39.56626	1448.63	39.56626	1363.06	39.56626	1715.32
39.67226	1447.26	  39.67226	1323.46	39.67226	1657.53
39.77826	1358.05	39.77826	1336.89	  39.77826	1668.47
39.88426	1366.78	39.88426	1361.6	39.88426	1687.55
39.99026	1423.58	39.99026	1330.01	39.99026	1716.73
40.09626	1414.07	40.09626	1336.21	40.09626	1646.84
40.20226	1414.26	40.20226	1377.29	40.20226	1666.52
40.30826	1393.8	40.30826	1327.55	40.30826	1696.34
40.41426	1368.99	40.41426	1392.8	40.41426	1696.1
40.52026	1401.79	40.52026	1375.69	40.52026	1693.12
40.62626	1472.01	40.62626	1305.36	40.62626	1643.78
40.73226	1437.02	40.73226	1365.78	40.73226	1678.55
40.83826	1455.29	40.83826	1353.29	40.83826	1731.19
40.94426	1486.24	  40.94426	1400.87	40.94426	1737.21
41.05026	1499.62	  41.05026	1429.8	41.05026	1662.94
41.15626	1443.57	41.15626	1382.55	41.15626	1806.89
41.26226	1424.03	  41.26226	1384.81	41.26226	1674.77
41.36826	1451.38	41.36826	1432.84	41.36826	1764.5
41.47426	1410.72	41.47426	1407.16	41.47426	1788.02
41.58026	1488.22	41.58026	1429.79	41.58026	1809.3
41.68626	1496.02	41.68626	1456.81	41.68626	1737.97
41.79226	1426.9	41.79226	1372.39	41.79226	1704.8
41.89826	1520.31	41.89826	1461.07	41.89826	1727.22
42.00426	1477.84	42.00426	1372.39	42.00426	1711.86
42.11026	1521.68	42.11026	1384.11	42.11026	1674.92
42.21626	1440.59	42.21626	1389.68	42.21626	1724.15
42.32226	1503.97	42.32226	1441.55	42.32226	1651.35
42.42826	1490.14	42.42826	1465.39	42.42826	1653.1
42.53426	1443.88	42.53426	1416.76	42.53426	1719.53
42.64026	1479.42	42.64026	1441.95	42.64026	1707.12
42.74626	1462.56	42.74626	1418.4	42.74626	1726.79
42.85226	1436.834	  42.85226	1440.98	42.85226	1705.63
42.95826	1459.77	42.95826	1482.3	42.95826	1703.9
43.06426	1483.94	43.06426	1436.62	43.06426	1695.93
43.17026	1476.93	43.17026	1457.04	43.17026	1681.65
43.27626	1476.61	43.27626	1450.36	43.27626	1687.39
43.38226	1551.88	43.38226	1496.62	43.38226	1709.75
43.48826	1525.75	43.48826	1497.96	43.48826	1707.38
43.59426	1528.2	43.59426	1488.51	43.59426	1717.94
43.70026	1524.96	43.70026	1435.98	43.70026	1732.6
43.80626	1519.55	43.80626	1476.45	43.80626	1749.42
43.91226	1498.95	43.91226	1480.12	43.91226	1709.4
44.01826	1561.13	44.01826	1472.38	44.01826	1752.02
44.12426	1552.96	44.12426	1443.35	44.12426	1752.61
44.23026	1530.35	44.23026	1432.12	44.23026	1717.36
44.33626	1548.99	44.33626	1472.38	44.33626	1723.09
44.44226	1544.01	44.44226	1509.01	44.44226	1725.89
44.54826	1520.01	44.54826	1481.97	44.54826	1799.99
44.65426	1550.66	44.65426	1484.76	44.65426	1774.68
44.76026	1517.48	44.76026	1531.09	44.76026	1821.64
44.86626	1531.02	44.86626	1525.32	44.86626	1750.91
44.97226	1508.45	44.97226	1460.6	44.97226	1706.02
45.07826	1580.01	45.07826	1507.98	45.07826	1794.85
45.18426	1572.23	45.18426	1448.52	45.18426	1771.74
45.29026	1562.54	45.29026	1548.74	45.29026	1751.08
45.39626	1616.71	45.39626	1466.84	45.39626	1757.22
45.50226	1525.22	45.50226	1498.89	45.50226	1823.73
45.60826	1574.54	    45.60826	1532.17	45.60826	1814.86
45.71426	1539.32	45.71426	1491.06	45.71426	1866.57
45.82026	1603.54	45.82026	1579.05	45.82026	1809.22
45.92626	1564.57	45.92626	1504.48	45.92626	1823.89
46.03226	1613.39	46.03226	1516.51	46.03226	1853.68
46.13826	1580.57	46.13826	1524.45	46.13826	1823.16
46.24426	1546.06	46.24426	1511.27	46.24426	1828.98
46.35026	1582.52	  46.35026	1466.5	46.35026	1913.3
46.45626	1627.06	46.45626	1568.91	46.45626	1820.47
46.56226	1667.44	  46.56226	1541.46	46.56226	1869.37
46.66826	1635.82	46.66826	1563.08	46.66826	1889.33
46.77426	1605.85	46.77426	1586.79	46.77426	1912.06
46.88026	1642.61	46.88026	1634.4	46.88026	1978.77
46.98626	1684.19	46.98626	1548.52	46.98626	1945.2
47.09226	1622.33	47.09226	1508.97	47.09226	1886.82
47.19826	1606.04	47.19826	1521.85	47.19826	1933.29
47.30426	1617.13	47.30426	1475.9	47.30426	1947.77
47.41026	1565.93	  47.41026	1568.68	47.41026	1916.45
47.51626	1605.37	47.51626	1528.5	47.51626	1913.65
47.62226	1627.44	47.62226	1564.38	47.62226	1943.28
47.72826	1616.65	47.72826	1594.53	47.72826	1881.01
47.83426	1616.4	47.83426	1531.22	47.83426	1942.71
47.94026	1605.13	47.94026	1553.97	47.94026	1954.48
48.04626	1631.71	48.04626	1570.11	48.04626	1910.71
48.15226	1677.27	48.15226	1534.34	48.15226	1960.29
48.25826	1634.79	   48.25826	1575.65	48.25826	1990.74
48.36426	1645.63	48.36426	1573.25	48.36426	1919.99
48.47026	1644.9	48.47026	1577.35	48.47026	1950.03
48.57626	1640.23	48.57626	1593.78	48.57626	1978.09
48.68226	1637.99	48.68226	1598.01	48.68226	2007.75
48.78826	1660.77	48.78826	1589.89	48.78826	2031.59
48.89426	1644.71	48.89426	1566.46	48.89426	1947.87
49.00026	1653.75	49.00026	1632.5	49.00026	1947.92
49.10626	1594.49	49.10626	1663.96	49.10626	1908.91
49.21226	1604.55	49.21226	1637.16	49.21226	1978.57
49.31826	1748.29	49.31826	1640.36	49.31826	2038.19
49.42426	1659.91	  49.42426	1638.8	49.42426	2068.2
49.53026	1660.55	49.53026	1655.11	49.53026	2062.02
49.63626	1699.32	49.63626	1718.77	49.63626	2141.77
49.74226	1719.1	  49.74226	1731.34	49.74226	2213.12
49.84826	1694.83	  49.84826	1741.72	49.84826	2234.01
49.95426	1758.42	49.95426	1834.3	49.95426	2269.14
50.06026	1777.66	50.06026	1955.39	50.06026	2458.91
50.16626	1892.4	50.16626	2108.82	50.16626	2663.11
50.27226	1990	50.27226	2300.21	50.27226	2973.47
50.37826	2154.24	50.37826	2587.09	50.37826	3483.47
50.48426	2335.3	50.48426	2890.77	50.48426	4469.1
50.59026	2322.16	50.59026	3221.24	50.59026	6975.2
50.69626	2459.58	50.69626	3569.76	50.69626	10726.6
50.80226	2407.53	50.80226	3728.49	50.80226	10858.6
50.90826	2532.56	50.90826	3701.8	50.90826	7824.18
51.01426	2529.74	51.01426	3528.61	51.01426	5290.05
51.12026	2491.61	51.12026	3338.23	51.12026	4193.34
51.22626	2504.49	51.22626	3147.26	51.22626	3602.03
51.33226	2682.13	51.33226	3214.71	51.33226	3304.08
51.43826	2827.15	  51.43826	3493.22	51.43826	3237.76
51.54426	3258.62	51.54426	4131.56	51.54426	3513.68
51.65026	4207.03	  51.65026	5746.79	51.65026	4018.64
51.75626	5671.28	51.75626	8509.11	51.75626	5520.54
51.86226	8248.16	51.86226	13672.8	51.86226	8840.93
51.96826	12094.5	51.96826	19426.2	51.96826	15190.9
52.07426	15186.4	52.07426	21062.2	52.07426	17317.1
52.18026	14284.8	52.18026	16634.4	52.18026	12327.6
52.28626	10582.8	52.28626	11026.2	52.28626	7123.46
52.39226	6879.97	52.39226	6989.21	52.39226	4456.64
52.49826	4652.75	52.49826	5043.25	52.49826	3303.09
52.60426	3597.66	52.60426	3750.08	52.60426	2882.03
52.71026	2906.42	52.71026	2986.93	52.71026	2629.37
52.81626	2512.6	52.81626	2585.51	52.81626	2571.97
52.92226	2388.77	52.92226	2441.5	52.92226	2338.56
53.02826	2234.25	53.02826	2149.65	53.02826	2305.46
53.13426	2011.36	53.13426	2083.77	53.13426	2225.73
53.24026	2068.58	53.24026	2036.22	53.24026	2207.01
53.34626	1910.94	53.34626	1883.4	53.34626	2189.69
53.45226	1869.42	53.45226	1772.18	53.45226	2176.91
53.55826	1856.71	53.55826	1746.7	53.55826	2127.59
53.66426	1806.88	53.66426	1810.68	53.66426	2107.69
53.77026	1754.82	53.77026	1784.64	53.77026	2116.78
53.87626	1792.59	53.87626	1794.86	53.87626	2084.94
53.98226	1769.95	53.98226	1726.71	53.98226	2147.41
54.08826	1680.66	54.08826	1696.36	54.08826	2121.27
54.19426	1755.44	54.19426	1660.85	54.19426	2116.07
54.30026	1727.54	54.30026	1669.02	54.30026	2089
54.40626	1754.65	54.40626	1644.32	54.40626	2054.97
54.51226	1702.12	54.51226	1708.07	54.51226	2031.13
54.61826	1802.16	  54.61826	1649.4	54.61826	2080.93
54.72426	1803.01	54.72426	1690.55	54.72426	2063.13
54.83026	1759.18	54.83026	1655.34	54.83026	2081.44
54.93626	1706.87	54.93626	1635.58	54.93626	2082.76
55.04226	1717.03	55.04226	1655.39	55.04226	2084.48
55.14826	1782.18	55.14826	1692.13	55.14826	2084.61
55.25426	1748.13	55.25426	1664.02	55.25426	2020.9
55.36026	1709.44	55.36026	1595.72	55.36026	2079.89
55.46626	1755.95	55.46626	1604.78	55.46626	2106.5
55.57226	1745.28	  55.57226	1649.27	55.57226	2028.36
55.67826	1655.6	55.67826	1634.97	55.67826	2053.94
55.78426	1721.51	55.78426	1628.74	55.78426	2117.85
55.89026	1695.97	  55.89026	1646.45	55.89026	2063.76
55.99626	1755.44	55.99626	1693.95	55.99626	2022.05
56.10226	1698.17	56.10226	1619.63	56.10226	2070.06
56.20826	1717.86	  56.20826	1640.27	56.20826	2041.75
56.31426	1740.73	56.31426	1646.76	56.31426	2051.15
56.42026	1734.02	56.42026	1651.57	56.42026	2078.13
56.52626	1739.86	56.52626	1633.48	56.52626	2031.13
56.63226	1763.24	56.63226	1612.31	56.63226	2019.52
56.73826	1711.44	56.73826	1602.1	56.73826	2091.33
56.84426	1719.92	56.84426	1613.08	56.84426	2079.77
56.95026	1736.89	56.95026	1635.24	56.95026	2044.27
57.05626	1698.91	57.05626	1631.46	57.05626	2086.01
57.16226	1775.78	57.16226	1591.4	57.16226	2091.46
57.26826	1742.28	  57.26826	1649.23	57.26826	2081.57
57.37426	1725.95	57.37426	1583.84	57.37426	2058.9
57.48026	1801.36	57.48026	1644.54	57.48026	2092.83
57.58626	1740.02	57.58626	1561.74	57.58626	2151.59
57.69226	1706.88	57.69226	1695.35	57.69226	2145.18
57.79826	1749.79	57.79826	1643.12	57.79826	2178.01
57.90426	1737.89	57.90426	1645.13	57.90426	2184.18
58.01026	1803.07	58.01026	1671.39	58.01026	2165.39
58.11626	1822.65	58.11626	1633.82	58.11626	2150.37
58.22226	1849.9	58.22226	1590.71	58.22226	2262.35
58.32826	1771.08	58.32826	1650.88	58.32826	2389.99
58.43426	1801.37	58.43426	1729.85	58.43426	2367.66
58.54026	1844.5	58.54026	1678.93	58.54026	2623.63
58.64626	1811.8	58.64626	1675.78	58.64626	2628.04
58.75226	1800.12	58.75226	1668.03	58.75226	2980.94
58.85826	1924.62	58.85826	1706.49	58.85826	3277.71
58.96426	1802.6	58.96426	1680.77	58.96426	3948.9
59.07026	1794.37	59.07026	1750.74	59.07026	4474.7
59.17626	1804.17	59.17626	1701.06	59.17626	4729.06
59.28226	1833.7	59.28226	1678.85	59.28226	4483.36
59.38826	1841.19	59.38826	1675.11	59.38826	3686.35
59.49426	1895.27	59.49426	1634.97	59.49426	3148.17
59.60026	1789.88	59.60026	1701.24	59.60026	2767.67
59.70626	1827.47	59.70626	1669.37	59.70626	2490.93
59.81226	1789.79	59.81226	1693.5	59.81226	2291.55
59.91826	1776.14	59.91826	1678.71	59.91826	2273.59
60.02426	1795.7	60.02426	1707.05	60.02426	2226.37
60.13026	1771.22	60.13026	1682.14	60.13026	2121.02
60.23626	1751.46	60.23626	1636.81	60.23626	2194.23
60.34226	1716.73	60.34226	1593.76	60.34226	2106.26
60.44826	1768.582	60.44826	1706.42	60.44826	2124.69
60.55426	1766.09	60.55426	1667.52	60.55426	2076.19
60.66026	1744.65	60.66026	1596.02	60.66026	2046.2
60.76626	1721.51	60.76626	1617.69	60.76626	2074.66
60.87226	1785.29	60.87226	1629.48	60.87226	2060.2
60.97826	1776.41	60.97826	1639.87	60.97826	2007.82
61.08426	1825.88	61.08426	1611.05	61.08426	2070.1
61.19026	1772.3	61.19026	1679.38	61.19026	2007.98
61.29626	1790.78	61.29626	1613.67	61.29626	2066.44
61.40226	1795.63	61.40226	1670.43	61.40226	2024.51
61.50826	1758.83	61.50826	1625.99	61.50826	2023.2
61.61426	1788.26	61.61426	1621.5	61.61426	1961.66
61.72026	1793.3	61.72026	1617.21	61.72026	2044.47
61.82626	1737.72	61.82626	1638.25	61.82626	2038.43
61.93226	1780.03	61.93226	1677.61	61.93226	2074.52
62.03826	1828.28	62.03826	1664.45	62.03826	1953.61
62.14426	1889.68	62.14426	1679.67	62.14426	2008.05
62.25026	1818.61	62.25026	1677.35	62.25026	2001.94
62.35626	1787.05	62.35626	1664	62.35626	1950.58
62.46226	1800.96	62.46226	1603.49	62.46226	2005.33
62.56826	1816.26	62.56826	1656.37	62.56826	1975.99
62.67426	1809.26	62.67426	1648.55	62.67426	1943.37
62.78026	1763.24	62.78026	1622.18	62.78026	1982.936
62.88626	1803.44	62.88626	1646.05	62.88626	1926.91
62.99226	1721.6	62.99226	1658.48	62.99226	1882.99
63.09826	1791.81	63.09826	1680.24	63.09826	1995.69
63.20426	1781.5	63.20426	1680.77	63.20426	1987.29
63.31026	1786.91	63.31026	1617.72	63.31026	1959.17
63.41626	1821.54	63.41626	1678.5	63.41626	1934.46
63.52226	1769.84	63.52226	1613.34	63.52226	1959.61
63.62826	1781.72	63.62826	1628.03	63.62826	1946.87
63.73426	1764.99	63.73426	1619.96	63.73426	1921.58
63.84026	1807.01	63.84026	1652.84	63.84026	1954.68
63.94626	1745.71	63.94626	1648.12	63.94626	1973.14
64.05226	1713.5	64.05226	1606.7	64.05226	1923.83
64.15826	1794.58	64.15826	1654.47	64.15826	1940.06
64.26426	1830.78	64.26426	1631.87	64.26426	1964.71
64.37026	1766.61	64.37026	1634.82	64.37026	1882.55
64.47626	1697.49	64.47626	1603.51	64.47626	1926.58
64.58226	1768.47	64.58226	1610.26	64.58226	1987.51
64.68826	1784.9	64.68826	1557.97	64.68826	1880.23
64.79426	1817.43	64.79426	1627.03	64.79426	1970.47
64.90026	1780.02	64.90026	1690.02	64.90026	2021
65.00626	1789.47	65.00626	1614.2	65.00626	1905.5
65.11226	1809.44	65.11226	1681.92	65.11226	1959.65
65.21826	1820.33	65.21826	1643.51	65.21826	1927.139
65.32426	1860.93	65.32426	1671.43	65.32426	1996.74
65.43026	1753.56	65.43026	1570.07	65.43026	1948.74
65.53626	1808.35	65.53626	1647.63	65.53626	1984.12
65.64226	1793.26	65.64226	1669.36	65.64226	1956.79
65.74826	1825.53	65.74826	1655.54	65.74826	1946.65
65.85426	1837.59	65.85426	1625.55	65.85426	2012.47
65.96026	1849.92	65.96026	1602.01	65.96026	1919.1
66.06626	1855.01	66.06626	1718.01	66.06626	1991.21
66.17226	1796.09	66.17226	1682.98	66.17226	1947.9
66.27826	1840.28	66.27826	1635.92	66.27826	1905.48
66.38426	1802.299	66.38426	1642.2	66.38426	1950.94
66.49026	1816.74	66.49026	1651.47	66.49026	1901.64
66.59626	1872.17	66.59626	1710.77	66.59626	1918.93
66.70226	1902.2	66.70226	1684.37	66.70226	1939.13
66.80826	1848.94	66.80826	1692.4	66.80826	1995.85
66.91426	1822.81	66.91426	1685.59	66.91426	1991.49
67.02026	1818.11	67.02026	1638.68	67.02026	1987.01
67.12626	1821.95	67.12626	1632.69	67.12626	2018.37
67.23226	1849.24	67.23226	1667.79	67.23226	1974.47
67.33826	1925.92	67.33826	1704.9	67.33826	1906.36
67.44426	1858.83	67.44426	1686.22	67.44426	1955.01
67.55026	1882.92	67.55026	1662.57	67.55026	2017.86
67.65626	1862.43	67.65626	1699.96	67.65626	1985.49
67.76226	1847.03	67.76226	1708.39	67.76226	1924.26
67.86826	1836.37	67.86826	1671.74	67.86826	1998.69
67.97426	1872.58	67.97426	1665.42	67.97426	2046.96
68.08026	1869.97	68.08026	1675.26	68.08026	1936.41
68.18626	1804.72	68.18626	1649.8	68.18626	1941.04
68.29226	1856.11	68.29226	1665.48	68.29226	1971.91
68.39826	1859.18	68.39826	1634.88	68.39826	1917.69
68.50426	1878.38	68.50426	1639.82	68.50426	1968.77
68.61026	1884.62	68.61026	1674.9	68.61026	1948.52
68.71626	1958.16	68.71626	1659.12	68.71626	1942.66
68.82226	1823.89	68.82226	1685.08	68.82226	1983.86
68.92826	1902.55	68.92826	1680.55	68.92826	1944.17
69.03426	1822.2	69.03426	1663.27	69.03426	1926.62
69.14026	1858.28	69.14026	1656.99	69.14026	1914.08
69.24626	1957.24	69.24626	1690.21	69.24626	1947.11
69.35226	1862.43	69.35226	1664.85	69.35226	1932.38
69.45826	1878.23	69.45826	1657.38	69.45826	1918.92
69.56426	1883.8	69.56426	1634.26	69.56426	1921.5
69.67026	1860.65	69.67026	1687.23	69.67026	1992.56
69.77626	1859.38	69.77626	1668.43	69.77626	1954.25
69.88226	1920.73	69.88226	1694.28	69.88226	1936.95
69.98826	1832.03	69.98826	1787.87	69.98826	1896.53
70.09426	1890.62	70.09426	1679.87	70.09426	1889.83
70.20026	1842.81	70.20026	1660.83	70.20026	1971.64
70.30626	1930.16	70.30626	1681.18	70.30626	1959.76
70.41226	1926.36	70.41226	1631.1	70.41226	1899.8
70.51826	1931.3	70.51826	1633.19	70.51826	1975.88
70.62426	1809.3	70.62426	1705.01	70.62426	1973.46
70.73026	1895.91	70.73026	1659.93	70.73026	1888.19
70.83626	1846.08	70.83626	1631.4	70.83626	2053.35
70.94226	1906.02	70.94226	1640.64	70.94226	1923.83
71.04826	1856.53	71.04826	1682.12	71.04826	1953.3
71.15426	1839.98	71.15426	1680.66	71.15426	1928.82
71.26026	1892.65	71.26026	1692.9	71.26026	1934.7
71.36626	1808.4	71.36626	1710.83	71.36626	1923.81
71.47226	1912.26	71.47226	1632.31	71.47226	1940.48
71.57826	1928.97	71.57826	1628.67	71.57826	1991.64
71.68426	1868.34	71.68426	1659.17	71.68426	1932.84
71.79026	1885.68	71.79026	1641.81	71.79026	1877.47
71.89626	1889.1	71.89626	1694.82	71.89626	1908.42
72.00226	1866.18	72.00226	1645.87	72.00226	1909.83
72.10826	1881.92	72.10826	1707.59	72.10826	1873.33
72.21426	1886.06	72.21426	1667.42	72.21426	1888.62
72.32026	1837.87	72.32026	1681.63	72.32026	1915.88
72.42626	1927.84	72.42626	1690.3	72.42626	1974.19
72.53226	1821.19	72.53226	1764.01	72.53226	1946.89
72.63826	1913.14	72.63826	1657.71	72.63826	1977.35
72.74426	1863.57	72.74426	1678.8	72.74426	1923.67
72.85026	1875.33	72.85026	1682.64	72.85026	1961.18
72.95626	1890.36	72.95626	1675.6	72.95626	1913.56
73.06226	1850.69	73.06226	1697.62	73.06226	1936.85
73.16826	1874.78	73.16826	1681.54	73.16826	1944.45
73.27426	1890.09	73.27426	1704.13	73.27426	1912.53
73.38026	1859.6	73.38026	1694.3	73.38026	1973.89
73.48626	1864.42	73.48626	1700.91	73.48626	1922.67
73.59226	1857.4	73.59226	1690.59	73.59226	1979.47
73.69826	1829	73.69826	1698.71	73.69826	1947.7
73.80426	1896.51	73.80426	1636.04	73.80426	1931.33
73.91026	1845.85	73.91026	1668.84	73.91026	1961.8
74.01626	1858.41	74.01626	1652.07	74.01626	1902.08
74.12226	1867.89	74.12226	1652.43	74.12226	1876.12
74.22826	1886.35	74.22826	1667.44	74.22826	1943.2
74.33426	1827.98	74.33426	1665.59	74.33426	1962.27
74.44026	1818.31	74.44026	1697.78	74.44026	1926.72
74.54626	1851.74	74.54626	1646.32	74.54626	1992.49
74.65226	1881.92	74.65226	1717.98	74.65226	1897.04
74.75826	1903.36	74.75826	1760.44	74.75826	1939.16
74.86426	1848.97	74.86426	1736.93	74.86426	1949.39
74.97026	1971.63	74.97026	1703.08	74.97026	1902.24
75.07626	1944.27	75.07626	1706.26	75.07626	1927.01
75.18226	1885.37	75.18226	1769.51	75.18226	1914.45
75.28826	1959.14	75.28826	1764.56	75.28826	1985.72
75.39426	1907.2	75.39426	1733.03	75.39426	2007.57
75.50026	1928.63	75.50026	1775.53	75.50026	1976.98
75.60626	2031.09	75.60626	1851.88	75.60626	1972.5
75.71226	2029.44	75.71226	1829.24	75.71226	1925.72
75.81826	2145.13	75.81826	1847.46	75.81826	2005.43
75.92426	2124.45	75.92426	2085.38	75.92426	1988.59
76.03026	2268.53	76.03026	2112.53	76.03026	2068.38
76.13626	2339.64	76.13626	2201.31	76.13626	2158.72
76.24226	2443.45	76.24226	2372.15	76.24226	2233.87
76.34826	2495.49	76.34826	2473.87	76.34826	2393.18
76.45426	2515.6	76.45426	2476.08	76.45426	2472.99
76.56026	2662	76.56026	2465.34	76.56026	2570.46
76.66626	2636.84	76.66626	2399.75	76.66626	2475.68
76.77226	2639.72	76.77226	2313.89	76.77226	2371.89
76.87826	2587.27	76.87826	2177.87	76.87826	2320.59
76.98426	2451.71	76.98426	2156.12	76.98426	2191.12
77.09026	2294.33	77.09026	2110.41	77.09026	2077.15
77.19626	2411.96	77.19626	1981.76	77.19626	2070.752
77.30226	2206.93	77.30226	1919.17	77.30226	2036.17
77.40826	2078.6	77.40826	1849.08	77.40826	2015.84
77.51426	1989.32	77.51426	1791.07	77.51426	1989.83
77.62026	1986.27	77.62026	1793.82	77.62026	1946.26
77.72626	2061.75	77.72626	1859.83	77.72626	2000.13
77.83226	1935.17	77.83226	1742.82	77.83226	1996.15
77.93826	1965.5	77.93826	1759.04	77.93826	1981.86
78.04426	1966.73	78.04426	1725.79	78.04426	1937.92
78.15026	1926.76	78.15026	1728.03	78.15026	1993.77
78.25626	2009.86	78.25626	1671.23	78.25626	2013.59
78.36226	1946.38	78.36226	1706.98	78.36226	1981.72
78.46826	1876.02	78.46826	1710.01	78.46826	2024
78.57426	1865.48	78.57426	1663.36	78.57426	1985.41
78.68026	1889.1	78.68026	1665.78	78.68026	1992.82
78.78626	1871.84	78.78626	1712.04	78.78626	1957.27
78.89226	1894.99	78.89226	1661.2	78.89226	1979.97
78.99826	1873.92	78.99826	1708.78	78.99826	1966.97
79.10426	1891.87	79.10426	1676.04	79.10426	1927.01
79.21026	1916.25	79.21026	1691.16	79.21026	1988.9
79.31626	1896.54	79.31626	1654	79.31626	2000.9
79.42226	1941.261	79.42226	1665.22	79.42226	2032.12
79.52826	1938.31	79.52826	1630.15	79.52826	1951.62
79.63426	1904.82	79.63426	1706.37	79.63426	1922.99
79.74026	1932.44	79.74026	1627.9	79.74026	1907.3
79.84626	1898.1	79.84626	1688.89	79.84626	1921.69
79.95226	1908.17	79.95226	1614.1	79.95226	1905.1
80.05826	1859.44	80.05826	1657.87	80.05826	1892.44
80.16426	1982.67	80.16426	1621.13	80.16426	1930.66
80.27026	1905.85	80.27026	1662.18	80.27026	1951.38
80.37626	1832.06	80.37626	1614.85	80.37626	1932.45
80.48226	1917.7	80.48226	1628.42	80.48226	1966.65
80.58826	1909.41	80.58826	1723.49	80.58826	1920.81
80.69426	1861.25	80.69426	1652.33	80.69426	1951.91
80.80026	1855.79	80.80026	1606.85	80.80026	1935.05
80.90626	1932.11	80.90626	1581.25	80.90626	1955.21
81.01226	1892.6	81.01226	1639.01	81.01226	1933.54
81.11826	1984.7	81.11826	1605.96	81.11826	1974.54
81.22426	1939.86	81.22426	1655.28	81.22426	1933.2
81.33026	1900.97	81.33026	1662.49	81.33026	1973.49
81.43626	1893.77	81.43626	1664.32	81.43626	1884.53
81.54226	1886.01	81.54226	1579.71	81.54226	1932.65
81.64826	1904.45	81.64826	1634.46	81.64826	1969.123
81.75426	1895.58	81.75426	1654.06	81.75426	1957.74
81.86026	1870.62	81.86026	1626.44	81.86026	1923.58
81.96626	1806.81	81.96626	1644.69	81.96626	1947.17
82.07226	1909.37	82.07226	1610.57	82.07226	1954.15
82.17826	1926.78	82.17826	1700.24	82.17826	1895.94
82.28426	1968.53	82.28426	1656.68	82.28426	1877.31
82.39026	1897.35	82.39026	1691.24	82.39026	2047.29
82.49626	1824.95	82.49626	1623.659	82.49626	1898.22
82.60226	1944.28	82.60226	1599.05	82.60226	1927.13
82.70826	1921.28	82.70826	1690.16	82.70826	1905.82
82.81426	1943.57	82.81426	1640.77	82.81426	1900.74
82.92026	1836.29	82.92026	1631.11	82.92026	1992.97
83.02626	1911.6	83.02626	1682.31	83.02626	1969.37
83.13226	1909.98	83.13226	1659.18	83.13226	1925.41
83.23826	1925.21	83.23826	1665.63	83.23826	1921.03
83.34426	1925.46	83.34426	1639.6	83.34426	1965.46
83.45026	1915.2	83.45026	1686.94	83.45026	1920.45
83.55626	1879.36	83.55626	1724.82	83.55626	1927.43
83.66226	1954.56	83.66226	1685.61	83.66226	1888.7
83.76826	1853.62	83.76826	1644.47	83.76826	1886.11
83.87426	1877.79	83.87426	1633.37	83.87426	1936.58
83.98026	1866.61	83.98026	1722.97	83.98026	1858.25
84.08626	1873.42	84.08626	1701.21	84.08626	1919.12
84.19226	1903.16	84.19226	1742.6	84.19226	1927.24
84.29826	1867.33	84.29826	1671.27	84.29826	1962.61
84.40426	1886.36	84.40426	1721.15	84.40426	1967.96
84.51026	1933.59	84.51026	1669.46	84.51026	1944.16
84.61626	1893.97	84.61626	1715.36	84.61626	1906.66
84.72226	1864.66	84.72226	1709.76	84.72226	1888.44
84.82826	1933.28	84.82826	1678.53	84.82826	1909.65
84.93426	1865.13	84.93426	1721.78	84.93426	1977.65
85.04026	1922.21	85.04026	1692.1	85.04026	1912.53
85.14626	1960.93	85.14626	1712.99	85.14626	1940.86
85.25226	1915.49	85.25226	1699.03	85.25226	1949.58
85.35826	1921.44	85.35826	1717.95	85.35826	1956.12
85.46426	1949.98	85.46426	1739.94	85.46426	2000.89
85.57026	1968.44	85.57026	1672.69	85.57026	1947.25
85.67626	1910.08	85.67626	1629.45	85.67626	1893.02
85.78226	1921.93	85.78226	1723.42	85.78226	1918.34
85.88826	1891.11	85.88826	1683.84	85.88826	1940.505
85.99426	1886.91	85.99426	1704.36	85.99426	1927.76
86.10026	1966.31	86.10026	1709.55	86.10026	1952.89
86.20626	1911.98	86.20626	1732.89	86.20626	1956.67
86.31226	1951.97	86.31226	1745.09	86.31226	1965.24
86.41826	1981.3	86.41826	1760.68	86.41826	1960.06
86.52426	1896.58	86.52426	1785.16	86.52426	1970.83
86.63026	1913.75	86.63026	1734.62	86.63026	1925.92
86.73626	1918.9	86.73626	1773.72	86.73626	1907.77
86.84226	1907.98	86.84226	1682.21	86.84226	1986.11
86.94826	1913.77	86.94826	1753.94	86.94826	1969.28
87.05426	1901.82	87.05426	1687.07	87.05426	1980.82
87.16026	1965.41	87.16026	1737.38	87.16026	2071.56
87.26626	1876.78	87.26626	1769.33	87.26626	2115.7
87.37226	1908.03	87.37226	1747.28	87.37226	1987.78
87.47826	1941.25	87.47826	1768.92	87.47826	2011.34
87.58426	2014.05	87.58426	1725.02	87.58426	2070.95
87.69026	1907.73	87.69026	1824.65	87.69026	2025.14
87.79626	1885.78	87.79626	1759.48	87.79626	2071.92
87.90226	1871.18	87.90226	1812.92	87.90226	2118.14
88.00826	1908.69	88.00826	1823.27	88.00826	2057.57
88.11426	1937.64	88.11426	1805.03	88.11426	2146.39
88.22026	1933.77	88.22026	1832.49	88.22026	2128.63
88.32626	1969.87	88.32626	1859.28	88.32626	2274.69
88.43226	1951.25	88.43226	1770.59	88.43226	2398.34
88.53826	1891.56	88.53826	1816.26	88.53826	2463.91
88.64426	1960.18	88.64426	1827.27	88.64426	2714.18
88.75026	1873.09	88.75026	1739.3	88.75026	2837.12
88.85626	1960.19	88.85626	1745.68	88.85626	2889.3
88.96226	1918.49	88.96226	1864.81	88.96226	2625.41
89.06826	1930.77	89.06826	1817.48	89.06826	2621.78
89.17426	1919.21	89.17426	1737.07	89.17426	2403.53
89.28026	1878.69	89.28026	1783.37	89.28026	2276.21
89.38626	1914.88	89.38626	1746.07	89.38626	2263.07
89.49226	1931.76	89.49226	1723.78	89.49226	2207.16
89.59826	1954.65	89.59826	1708.88	89.59826	2151.83
89.70426	1949.69	89.70426	1846.57	89.70426	2133.96
89.81026	1915.76	89.81026	1745.24	89.81026	2083.1
89.91626	1916.92	89.91626	1750.41	89.91626	2046.47
90.02226	1898.77	90.02226	1751.94	90.02226	2133.12
90.12826	1860.67	90.12826	1685.59	90.12826	2112.73
90.23426	1920.6	90.23426	1760.18	90.23426	2022.61
90.34026	1913.89	90.34026	1732.45	90.34026	2124.86
90.44626	1947.82	90.44626	1747.92	90.44626	2100.62
90.55226	1888.09	90.55226	1787.57	90.55226	1995.5
90.65826	1902.23	90.65826	1801.46	90.65826	2113.47
90.76426	1905.83	90.76426	1754.83	90.76426	2063.56
90.87026	1903.33	90.87026	1758.53	90.87026	2101.33
90.97626	1918.79	90.97626	1725.07	90.97626	2073.63
91.08226	1926.55	91.08226	1711.61	91.08226	2079.92
91.18826	1875.08	91.18826	1770.11	91.18826	2064.15
91.29426	1939.09	91.29426	1795.89	91.29426	2063.22
91.40026	1882.77	91.40026	1728.24	91.40026	1993.37
91.50626	1889.2	91.50626	1669.22	91.50626	2027.46
91.61226	1862.86	91.61226	1741.89	91.61226	2048.56
91.71826	1938.73	91.71826	1749.53	91.71826	2083.28
91.82426	1903.22	91.82426	1709.96	91.82426	2013.11
91.93026	1805.48	91.93026	1676.08	91.93026	2056.67
92.03626	1880.69	92.03626	1705.45	92.03626	2101.45
92.14226	1819.72	92.14226	1679.64	92.14226	2055.82
92.24826	1926.62	92.24826	1734.63	92.24826	1986.24
92.35426	1847.52	92.35426	1716.51	92.35426	2011.14
92.46026	1893.48	92.46026	1724.06	92.46026	2018.8
92.56626	1863.94	92.56626	1732.74	92.56626	2058.05
92.67226	1859.92	92.67226	1701.67	92.67226	1995.8
92.77826	1911.15	92.77826	1733.38	92.77826	2038.29
92.88426	1939.98	92.88426	1771.56	92.88426	1956.9
92.99026	1904.66	92.99026	1751.69	92.99026	2058.8
93.09626	1880.91	93.09626	1711.55	93.09626	2009.36
93.20226	1817.75	93.20226	1749.33	93.20226	1981.57
93.30826	1901.8	93.30826	1721.16	93.30826	2026.68
93.41426	1888.68	93.41426	1754.49	93.41426	2020.78
93.52026	1933.4	93.52026	1775.01	93.52026	1996.24
93.62626	1890.31	93.62626	1747.6	93.62626	1996.01
93.73226	1932.32	93.73226	1732.42	93.73226	1958.41
93.83826	1894.48	93.83826	1718.66	93.83826	2066.96
93.94426	1969.96	93.94426	1657.47	93.94426	2034.96
94.05026	1935.68	94.05026	1804.71	94.05026	1986.95
94.15626	1947.49	94.15626	1781.4	94.15626	1951.76
94.26226	1918.62	94.26226	1746.72	94.26226	1979.78
94.36826	1960.7	94.36826	1744.94	94.36826	1972.91
94.47426	1921.08	94.47426	1729.04	94.47426	1980.15
94.58026	1943.62	94.58026	1735.77	94.58026	1877.7
94.68626	1959.35	94.68626	1762.36	94.68626	1926.87
94.79226	1888.08	94.79226	1782.54	94.79226	2035.89
94.89826	1928.98	94.89826	1759.21	94.89826	2069.93
95.00426	1918.49	95.00426	1811.81	95.00426	2038.64
95.11026	1910.39	95.11026	1715.74	95.11026	1929.49
95.21626	1893.03	95.21626	1809.63	95.21626	1973.32
95.32226	1914.4	95.32226	1787.8	95.32226	1896.92
95.42826	1862.35	95.42826	1747.71	95.42826	1929.95
95.53426	1887.38	95.53426	1769.6	95.53426	1995.5
95.64026	1926.53	95.64026	1785.64	95.64026	2046.1
95.74626	1942.31	95.74626	1741.31	95.74626	1980.9
95.85226	1917.58	95.85226	1808.22	95.85226	2023.82
95.95826	1947.59	95.95826	1833.09	95.95826	1966.69
96.06426	1955.1	96.06426	1825.19	96.06426	1984.75
96.17026	1933.627	96.17026	1747.97	96.17026	1967.45
96.27626	1938.45	96.27626	1770.21	96.27626	1945.1
96.38226	1963.29	96.38226	1815.32	96.38226	2007.7
96.48826	1983.43	96.48826	1784.95	96.48826	1981.32
96.59426	1979.35	96.59426	1870.83	96.59426	1926.02
96.70026	2008.24	96.70026	1855.84	96.70026	2050.22
96.80626	2011.01	96.80626	1860.02	96.80626	2009.79
96.91226	1976.38	96.91226	1834.96	96.91226	1965.143
97.01826	2041.52	97.01826	1833.11	97.01826	2061.34
97.12426	2010.16	97.12426	1862.98	97.12426	2081.33
97.23026	2025.17	97.23026	1903.2	97.23026	1971.18
97.33626	1992.21	97.33626	1828.39	97.33626	2007.25
97.44226	2003.9	97.44226	1885.28	97.44226	2052.28
97.54826	2095.34	97.54826	1862.11	97.54826	2001.69
97.65426	2127.28	97.65426	1885.2	97.65426	2029.45
97.76026	2122.3	97.76026	1937.24	97.76026	2103.66
97.86626	2155.04	97.86626	1993.06	97.86626	2122.99
97.97226	2263.53	97.97226	2057.51	97.97226	2082.75
98.07826	2296.84	98.07826	2177.58	98.07826	2176.01
98.18426	2490.38	98.18426	2169.17	98.18426	2169.99
98.29026	2718.2	98.29026	2343.81	98.29026	2264.89
98.39626	2928.54	98.39626	2496.68	98.39626	2403.16
98.50226	3201.47	98.50226	2801.71	98.50226	2608.69
98.60826	3588.12	98.60826	3094.81	98.60826	2957.01
98.71426	4045.86	98.71426	3383.5	98.71426	3159.26
98.82026	4378.41	98.82026	3729.37	98.82026	3435.32
98.92626	4725.6	98.92626	3918.21	98.92626	3460.56
99.03226	4680.43	99.03226	3682.93	99.03226	3298.89
99.13826	4643.06	99.13826	3529.37	99.13826	3027.96
99.24426	4335.43	99.24426	3180.26	99.24426	2879.08
99.35026	3984.36	99.35026	2867.94	99.35026	2591.53
99.45626	3575.28	99.45626	2654.61	99.45626	2333.89
99.56226	3166.58	99.56226	2395.31	99.56226	2355.73
99.66826	2799.47	99.66826	2344.31	99.66826	2187.1
99.77426	2621.16	99.77426	2180.97	99.77426	2189.93
99.88026	2362.22	99.88026	2098.29	99.88026	2077
99.98626	2200.62	99.98626	2047.61	99.98626	1993.72
100.092	2192.03	100.092	1978.82	100.092	1992.57
100.198	2171.66	100.198	1962.78	100.198	1990.86
100.304	2160.73	100.304	1910.65	100.304	1998.73
100.41	2074.81	100.41	1888.15	100.41	2019.11
100.516	2091.26	100.516	1873.74	100.516	2063.27
100.622	2081.9	100.622	1905.81	100.622	2035.09
100.728	2002.77	100.728	1828.99	100.728	2038.98
100.834	1958.48	100.834	1849.94	100.834	1940.92
100.94	1956.81	100.94	1798.44	100.94	2011.82
101.046	1971.76	101.046	1821.03	101.046	2025.98
101.152	1963.48	101.152	1762.48	101.152	1976.54
101.258	1976.723	101.258	1838.86	101.258	1964.13
101.364	1975.47	101.364	1766.91	101.364	1931.9
101.47	1916.38	101.47	1840.65	101.47	1999.62
101.576	1952.65	101.576	1804.57	101.576	1896.7
101.682	1901.34	101.682	1755.83	101.682	1941.6
101.788	1914.41	101.788	1761.07	101.788	1942.14
101.894	1922.83	101.894	1780.47	101.894	2000.47
102	1915.83	102	1803.25	102	1928.92
102.106	1990.61	102.106	1793.81	102.106	1951.22
102.212	1966.91	102.212	1804.24	102.212	1989.2
102.318	1943.55	102.318	1870.5	102.318	1932.26
102.424	1948.38	102.424	1807.2	102.424	1901.21
102.53	1952.75	102.53	1831.2	102.53	2021.72
102.636	1927.29	102.636	1764.68	102.636	1953.73
102.742	1973.2	102.742	1826.22	102.742	1963.96
102.848	1899.07	102.848	1813.46	102.848	1923.29
102.954	1929.74	102.954	1815.31	102.954	1911.65
103.06	1920.19	103.06	1738.35	103.06	1915.56
103.166	1922.47	103.166	1791.7	103.166	1927.74
103.272	1921.78	103.272	1759.01	103.272	1901.95
103.378	1897.53	103.378	1741.87	103.378	1899.77
103.484	1966.2	103.484	1783.43	103.484	1962.33
103.59	1971.14	103.59	1793.89	103.59	1868.57
103.696	1968.17	103.696	1807.85	103.696	1907.47
103.802	1919.17	103.802	1780.35	103.802	1899.39
103.908	1898.25	103.908	1779.03	103.908	1916.94
104.014	1891.24	104.014	1744.7	104.014	1887.84
104.12	1963.88	104.12	1700.69	104.12	2000.09
104.226	1984.13	104.226	1698.76	104.226	1938.44
104.332	1933.32	104.332	1789.19	104.332	1883.34
104.438	1901.3	104.438	1763.6	104.438	1918.25
104.544	1940.65	104.544	1753.43	104.544	1906.93
104.65	1931.53	104.65	1784.98	104.65	1851.04
104.756	1916.45	104.756	1723.11	104.756	1945.28
104.862	1888.03	104.862	1741.44	104.862	1873.85
104.968	1872.28	104.968	1814.12	104.968	1921.96
105.074	1931.89	105.074	1743.94	105.074	1827.03
105.18	1912.22	105.18	1722.8	105.18	1907.34
105.286	1903.63	105.286	1706.25	105.286	1971.19
105.392	1848.5	105.392	1730.38	105.392	1949.46
105.498	1983.39	105.498	1800.9	105.498	1927.77
105.604	1933.86	105.604	1774.01	105.604	1925.07
105.71	1898.71	105.71	1852.32	105.71	1906.64
105.816	1886.627	105.816	1786.75	105.816	1844.54
105.922	1945.35	105.922	1744.58	105.922	1883.77
106.028	1917.09	106.028	1799.1	106.028	1855.62
106.134	1964.36	106.134	1801.85	106.134	1918.73
106.24	1879.91	106.24	1860.31	106.24	1969.46
106.346	1982.41	106.346	1769.15	106.346	1992.83
106.452	1896.22	106.452	1738.76	106.452	1947.9
106.558	1926.89	106.558	1845.87	106.558	1947.64
106.664	1938.38	106.664	1859.01	106.664	2022.12
106.77	1883.52	106.77	1730.08	106.77	1989.15
106.876	1924.87	106.876	1790.47	106.876	1988.02
106.982	1942.67	106.982	1807.45	106.982	1974.92
107.088	1860.68	107.088	1818.72	107.088	1969.95
107.194	1962.28	107.194	1761.89	107.194	1920.8
107.3	1922.53	107.3	1906.25	107.3	1903.17
107.406	1885	107.406	1815.38	107.406	1964.67
107.512	1897.57	107.512	1795.23	107.512	1975.44
107.618	1927.74	107.618	1777.56	107.618	1986.73
107.724	1874.68	107.724	1781.97	107.724	1924.33
107.83	1884.08	107.83	1856.4	107.83	1965.4
107.936	1902.32	107.936	1828.05	107.936	2024.03
108.042	1985.03	108.042	1823.04	108.042	1981.55
108.148	1944.74	108.148	1829.82	108.148	1955.23
108.254	1915.5	108.254	1838.03	108.254	2011.84
108.36	1880.64	108.36	1849.06	108.36	2012.07
108.466	1895.75	108.466	1814.85	108.466	2000.29
108.572	1920.87	108.572	1860.22	108.572	2077.1
108.678	1927.44	108.678	1879.57	108.678	2014.14
108.784	1925.52	108.784	1806.95	108.784	2087.47
108.89	1913.94	108.89	1841.88	108.89	2085.97
108.996	1962.75	108.996	1827.5	108.996	2101.26
109.102	1922.34	109.102	1861.47	109.102	2149
109.208	1932.73	109.208	1839.67	109.208	2147.27
109.314	1992.53	109.314	1815.013	109.314	2238.33
109.42	1961.72	109.42	1832.9	109.42	2273.55
109.526	1966.58	109.526	1888.6	109.526	2399.88
109.632	1973.48	109.632	1823.51	109.632	2481.13
109.738	1917.61	109.738	1854.31	109.738	2589.01
109.844	1996.33	109.844	1875.89	109.844	2734.79
109.95	1989	109.95	1879.25	109.95	2812.72
110.056	1955.87	110.056	1798.36	110.056	2884.34
110.162	1953.97	110.162	1830.43	110.162	2935.71
110.268	1946.66	110.268	1829.01	110.268	2840.85
110.374	1916.91	110.374	1783	110.374	2790.36
110.48	1966.66	110.48	1873.65	110.48	2652.52
110.586	1940.82	110.586	1773.13	110.586	2561.22
110.692	1922.57	110.692	1889.61	110.692	2458.84
110.798	1958.43	110.798	1883.35	110.798	2350.74
110.904	1890.396	110.904	1844.56	110.904	2255.66
111.01	1908.51	111.01	1801.88	111.01	2292.04
111.116	1923.36	111.116	1824.92	111.116	2252.42
111.222	1966.381	111.222	1768.02	111.222	2154.31
111.328	1946.69	111.328	1808.85	111.328	2090.88
111.434	1889.24	111.434	1775.12	111.434	2083.39
111.54	1885.77	111.54	1765.89	111.54	2129.95
111.646	1943.93	111.646	1808.25	111.646	2062.82
111.752	1902.49	111.752	1807.15	111.752	1974.76
111.858	1897.49	111.858	1822.81	111.858	2133.59
111.964	1868.59	111.964	1833.66	111.964	2061.52
112.07	1893.47	112.07	1777.39	112.07	2103.25
112.176	1884.66	112.176	1745.64	112.176	2080.88
112.282	1894.5	112.282	1766.74	112.282	2016.48
112.388	1910.03	112.388	1754.84	112.388	2076.47
112.494	1900.19	112.494	1776.62	112.494	2029.38
112.6	1841.88	112.6	1766.42	112.6	2039.92
112.706	1894.3	112.706	1725.69	112.706	2008.02
112.812	1899.67	112.812	1775.61	112.812	2037.79
112.918	1915.25	112.918	1752.76	112.918	2006.73
113.024	1859.85	113.024	1789.5	113.024	2012.59
113.13	1867.97	113.13	1808.85	113.13	2002.9
113.236	1847.98	113.236	1763.96	113.236	2034.14
113.342	1882.68	113.342	1791.69	113.342	2050.68
113.448	1894.53	113.448	1769.74	113.448	2038.15
113.554	1846.93	113.554	1798.23	113.554	1987.06
113.66	1863.48	113.66	1764.36	113.66	2022.09
113.766	1872.54	113.766	1814.92	113.766	1987.05
113.872	1912.62	113.872	1737.41	113.872	1965.86
113.978	1850.32	113.978	1854.26	113.978	2031.6
114.084	1919.98	114.084	1814.35	114.084	1987.81
114.19	1919.93	114.19	1841.09	114.19	2009.01
114.296	1900.35	114.296	1788.06	114.296	1974.62
114.402	1867.87	114.402	1771.18	114.402	1977.45
114.508	1867.21	114.508	1840.1	114.508	1957.89
114.614	1861.92	114.614	1789.15	114.614	1968.65
114.72	1848.65	114.72	1867.13	114.72	1995.51
114.826	1881.9	114.826	1823.29	114.826	1993.3
114.932	1831.72	114.932	1855.46	114.932	1978.71
115.038	1977	115.038	1854.66	115.038	2023.76
115.144	1913.59	115.144	1885.88	115.144	1995.1
115.25	1888.29	115.25	1875.55	115.25	2045.08
115.356	1944.37	115.356	1843.67	115.356	2048.26
115.462	1876.27	115.462	1914.22	115.462	1983.8
115.568	1897.42	115.568	1826.54	115.568	1959.31
115.674	1911.4	115.674	1841	115.674	2051.91
115.78	1896.22	115.78	1883.27	115.78	2007.94
115.886	1923.91	115.886	1873.07	115.886	2025.88
115.992	1906.81	115.992	1844.05	115.992	2004.82
116.098	1873.93	116.098	1905.1	116.098	2026.27
116.204	1963.74	116.204	1870.65	116.204	2062.82
116.31	1910.24	116.31	1914.91	116.31	1995.06
116.416	1930.7	116.416	1949.88	116.416	2004.46
116.522	1882.72	116.522	1901.33	116.522	2030.21
116.628	1862.42	116.628	1796.23	116.628	1975.4
116.734	1860.43	116.734	1903.43	116.734	1999.6
116.84	1866.53	116.84	1886.68	116.84	2023.64
116.946	1924.09	116.946	1818.09	116.946	2059.94
117.052	1928.3	117.052	1872.94	117.052	2069.88
117.158	1911.22	117.158	1868.12	117.158	2095.15
117.264	1970.77	117.264	1872.46	117.264	2114.93
117.37	1886.62	117.37	1857.4	117.37	2168.05
117.476	1995.53	117.476	1913.93	117.476	2260.26
117.582	1957.2	117.582	1845.7	117.582	2265.39
117.688	1980.42	117.688	1921.91	117.688	2344.99
117.794	1908.36	117.794	1865.33	117.794	2424.34
117.9	1939.62	117.9	1850.14	117.9	2499.67
118.006	1944.5	118.006	1836.32	118.006	2413.67
118.112	1874.02	118.112	1841.92	118.112	2438.75
118.218	1906.56	118.218	1823.88	118.218	2327.98
118.324	1895.24	118.324	1844.81	118.324	2332.33
118.43	1896.06	118.43	1880.22	118.43	2319.93
118.536	1827.2	118.536	1861.11	118.536	2151.75
118.642	1940.96	118.642	1875.98	118.642	2188.37
118.748	1970.17	118.748	1898.27	118.748	2083.7
118.854	1939.33	118.854	1874.64	118.854	2094.82
118.96	1944.4	118.96	1858.63	118.96	2095.83
119.066	1975.15	119.066	1920.85	119.066	2076.89
119.172	1924.99	119.172	1883.29	119.172	2039.12
119.278	1913.35	119.278	1855.95	119.278	2041.93
119.384	1920.81	119.384	1852.29	119.384	2052.96
119.49	1916.23	119.49	1857.33	119.49	1974.78
119.596	1874.9	119.596	1915.75	119.596	1931.2
119.702	1842.5	119.702	1866.4	119.702	2049.44
119.808	1914.37	119.808	1944.59	119.808	1993.7
119.914	1974.37	119.914	1831.15	119.914	2080.03
119.967	1947.49	119.967	1829.23	119.967	2097.66